Folder: MobiCom24-SatelliteCOTS/Energy-ShortTerm/battery_curve

Note: Energy-ShortTerm/README.md
# Energy ShortTerm

This folder contains details of the artifacts related to Section 4 (Energy Results). We provide details of the dataset, analysis scripts as well as plotting scripts to generate Figures 11.

## Folder structure
| Foldername/Filename                      | Description                                                   |
| ---------------------------------------- | ------------------------------------------------------------- |
| battery_curve           | The files needed to generate the battery characteristic curve |
| telemetries/all.csv     | The collected CSV dataset of telemetries.                     |
| telemetries/payload.csv | The collected CSV dataset of payload telemetries.             |
| plot-section3-figure11.py                | Scripts for generating figure11.                              |

---

## Dataset Description

The dataset file `telemetry_all.csv` contains several fields. We provide description for each field below.

| Field name       | Description of the field                      |
| ---------------- | --------------------------------------------- |
| `TIME`           | Timestamp of the test                         |
| `MPPT_Iout`      | Output current of the solar panel（mV）       |
| `UV_I`           | Current of the UV Band（mA）                  |
| `POBC_I_5V`      | Input voltage of the second solar panel（mV） |
| `XMIT_A_12V`     | Current of the baseband A (mA)                |
| `XMIT_B_12V`     | Current of the baseband B (mA)                |
| `I_Atlas200DK-B` | Current of Atlas200DK-B (mA)                  |
| `Battery_U`      | Battery Voltage（mV）                         |
| `Battery_I`      | Battery Current（mA）                         |

## Requirements

* Python (>=3.6)
* Numpy (>=1.19.5)
* Matplotlib (>=3.1.3)
* Numpy (>=1.19.5)

---

## Generating Plots

Use the following bash command to generate results/plots

```bash
python3 plot-section4-figure11.py
```
The generated results will be saved in the `Energy-ShortTerm` folder.

File: discharging_df_1.csv
Index,Status,Current(mA),Voltage(V),Capacity(mAh),Energy(Wh),RelaTime(h:min:s.ms),AbsoTime(h:min:s.ms)
15788,Discharging,-967.2,16.2549,0.241722,0.00394106,0:00:01.000,2005-01-01 23:22:54
16042,Discharging,-967.2,16.2053,68.4979,1.11115,0:04:15.000,2005-01-01 23:27:08
16296,Discharging,-967.2,16.1879,136.754,2.21659,0:08:29.000,2005-01-01 23:31:22
16550,Discharging,-967.2,16.1731,205.009,3.32087,0:12:43.000,2005-01-01 23:35:36
16804,Discharging,-965.4,16.1557,273.219,4.4236,0:16:57.000,2005-01-01 23:39:50
17058,Discharging,-965.4,16.1383,341.368,5.52409,0:21:11.000,2005-01-01 23:44:04
17312,Discharging,-965.4,16.1185,409.516,6.62333,0:25:25.000,2005-01-01 23:48:18
17566,Discharging,-967.2,16.0987,477.663,7.7211,0:29:39.000,2005-01-01 23:52:32
17820,Discharging,-967.2,16.0739,545.83,8.81705,0:33:53.000,2005-01-01 23:56:46
18074,Discharging,-967.2,16.0441,614.005,9.91161,0:38:07.000,2005-01-02 00:01:00
18328,Discharging,-967.2,16.0143,682.273,11.0055,0:42:21.000,2005-01-02 00:05:14
18582,Discharging,-967.2,15.9846,750.56,12.0976,0:46:35.000,2005-01-02 00:09:28
18836,Discharging,-970.9,15.9523,818.845,13.1875,0:50:49.000,2005-01-02 00:13:42
19090,Discharging,-967.2,15.9176,887.131,14.2751,0:55:03.000,2005-01-02 00:17:56
19344,Discharging,-967.2,15.8854,955.418,15.36056,0:59:17.000,2005-01-02 00:22:10
19598,Discharging,-967.2,15.8556,1023.65,16.4428,1:03:31.000,2005-01-02 00:26:24
19852,Discharging,-965.4,15.8209,1091.78,17.5227,1:07:45.000,2005-01-02 00:30:38
20106,Discharging,-965.4,15.7911,1159.912,18.5993,1:11:59.000,2005-01-02 00:34:52
20360,Discharging,-965.4,15.7589,1228.04,19.6747,1:16:13.000,2005-01-02 00:39:06
20614,Discharging,-965.4,15.7242,1296.17,20.7471,1:20:27.000,2005-01-02 00:43:20
20868,Discharging,-967.2,15.6944,1364.3,21.8177,1:24:41.000,2005-01-02 00:47:34
21122,Discharging,-967.2,15.6622,1432.43,22.8875,1:28:55.000,2005-01-02 00:51:48
21376,Discharging,-970.9,15.6349,1500.574,23.9549,1:33:09.000,2005-01-02 00:56:02
21630,Discharging,-967.2,15.6026,1568.72,25.021,1:37:23.000,2005-01-02 01:00:16
21884,Discharging,-967.2,15.5753,1636.86,26.0855,1:41:37.000,2005-01-02 01:04:30
22138,Discharging,-967.2,15.5481,1705.01,27.1467,1:45:51.000,2005-01-02 01:08:44
22392,Discharging,-970.9,15.5208,1773.15,28.2079,1:50:05.000,2005-01-02 01:12:58
22646,Discharging,-965.4,15.4985,1841.29,29.2659,1:54:19.000,2005-01-02 01:17:12
22900,Discharging,-965.4,15.4737,1909.418,30.3219,1:58:33.000,2005-01-02 01:21:26
23154,Discharging,-965.4,15.4489,1977.546,31.375,2:02:47.000,2005-01-02 01:25:40
23408,Discharging,-965.4,15.4191,2045.58,32.4258,2:07:01.000,2005-01-02 01:29:54
23662,Discharging,-965.4,15.3943,2113.574,33.4738,2:11:15.000,2005-01-02 01:34:08
23916,Discharging,-965.4,15.367,2181.57,34.5203,2:15:29.000,2005-01-02 01:38:22
24170,Discharging,-967.2,15.3348,2249.93,35.5669,2:19:43.000,2005-01-02 01:42:36
24424,Discharging,-967.2,15.3025,2318.35,36.6134,2:23:57.000,2005-01-02 01:46:50
24678,Discharging,-967.2,15.2703,2386.77,37.6597,2:28:11.000,2005-01-02 01:51:04
24932,Discharging,-967.2,15.238,2455.2,38.6987,2:32:25.000,2005-01-02 01:55:18
25186,Discharging,-967.2,15.2008,2523.61,39.736,2:36:39.000,2005-01-02 01:59:32
25440,Discharging,-965.4,15.1736,2592.01,40.7727,2:40:53.000,2005-01-02 02:03:46
25694,Discharging,-965.4,15.1438,2660.02,41.8076,2:45:07.000,2005-01-02 02:08:00
25948,Discharging,-965.4,15.1116,2728.01,42.8362,2:49:21.000,2005-01-02 02:12:14
26202,Discharging,-965.4,15.0818,2795.99,43.8633,2:53:35.000,2005-01-02 02:16:28
26456,Discharging,-965.4,15.052,2863.99,44.8904,2:57:49.000,2005-01-02 02:20:42
26710,Discharging,-965.4,15.0223,2931.98,45.9174,3:02:03.000,2005-01-02 02:24:56
26964,Discharging,-967.2,14.9875,3000.12,46.943,3:06:17.000,2005-01-02 02:29:10
27218,Discharging,-967.2,14.9603,3068.54,47.9638,3:10:31.000,2005-01-02 02:33:24
27472,Discharging,-967.2,14.928,3136.96,48.9817,3:14:45.000,2005-01-02 02:37:38
27726,Discharging,-967.2,14.8983,3205.37,49.9991,3:18:59.000,2005-01-02 02:41:52
27980,Discharging,-967.2,14.8685,3273.77,51.0165,3:23:13.000,2005-01-02 02:46:06
28234,Discharging,-967.2,14.8387,3342.19,52.0336,3:27:27.000,2005-01-02 02:50:20
28488,Discharging,-967.2,14.8115,3410.39,53.042,3:31:41.000,2005-01-02 02:54:34
28742,Discharging,-965.4,14.7817,3478.41,54.0497,3:35:55.000,2005-01-02 02:58:48
28996,Discharging,-967.2,14.7519,3546.41,55.0574,3:40:09.000,2005-01-02 03:03:02
29250,Discharging,-967.2,14.7247,3614.41,56.0646,3:44:23.000,2005-01-02 03:07:16
29504,Discharging,-965.4,14.6974,3682.42,57.066,3:48:37.000,2005-01-02 03:11:30
29758,Discharging,-963.5,14.6676,3750.44,58.0642,3:52:51.000,2005-01-02 03:15:44
30012,Discharging,-967.2,14.6378,3818.8,59.0627,3:57:05.000,2005-01-02 03:19:58
30266,Discharging,-967.2,14.6106,3887.21,60.0607,4:01:19.000,2005-01-02 03:24:12
30520,Discharging,-967.2,14.5882,3955.62,61.0587,4:05:33.000,2005-01-02 03:28:26
30774,Discharging,-967.2,14.561,4023.84,62.0564,4:09:47.000,2005-01-02 03:32:40
31028,Discharging,-967.2,14.5362,4091.74,63.0473,4:14:01.000,2005-01-02 03:36:54
31282,Discharging,-965.4,14.5188,4159.61,64.036,4:18:15.000,2005-01-02 03:41:08
31536,Discharging,-965.4,14.494,4227.44,65.0243,4:22:29.000,2005-01-02 03:45:22
31790,Discharging,-967.2,14.4742,4295.27,66.0126,4:26:43.000,2005-01-02 03:49:36
32044,Discharging,-967.2,14.4543,4363.096,67.0009,4:30:57.000,2005-01-02 03:53:50
32298,Discharging,-967.2,14.432,4430.92,67.9892,4:35:11.000,2005-01-02 03:58:04
32552,Discharging,-965.4,14.4146,4498.75,68.9775,4:39:25.000,2005-01-02 04:02:18
32806,Discharging,-967.2,14.3923,4566.6,69.9658,4:43:39.000,2005-01-02 04:06:32
33060,Discharging,-967.2,14.375,4634.48,70.9541,4:47:53.000,2005-01-02 04:10:46
33314,Discharging,-967.2,14.3551,4702.35,71.9419,4:52:07.000,2005-01-02 04:15:00
33568,Discharging,-967.2,14.3377,4770.23,72.9244,4:56:21.000,2005-01-02 04:19:14
33822,Discharging,-967.2,14.3229,4838.1,73.8942,5:00:35.000,2005-01-02 04:23:28
34076,Discharging,-967.2,14.3055,4905.976,74.8639,5:04:49.000,2005-01-02 04:27:42
34330,Discharging,-965.4,14.2906,4973.82,75.8331,5:09:03.000,2005-01-02 04:31:56
34584,Discharging,-965.4,14.2733,5041.65,76.8021,5:13:17.000,2005-01-02 04:36:10
34838,Discharging,-965.4,14.2534,5109.47,77.771,5:17:31.000,2005-01-02 04:40:24
35092,Discharging,-967.2,14.2361,5177.3,78.7399,5:21:45.000,2005-01-02 04:44:38
35346,Discharging,-967.2,14.2162,5245.12,79.7089,5:25:59.000,2005-01-02 04:48:52
35600,Discharging,-965.4,14.1989,5312.95,80.6778,5:30:13.000,2005-01-02 04:53:06
35854,Discharging,-967.2,14.1765,5380.81,81.6467,5:34:27.000,2005-01-02 04:57:20
36108,Discharging,-967.2,14.1517,5448.67,82.6157,5:38:41.000,2005-01-02 05:01:34
36362,Discharging,-967.2,14.1294,5516.53,83.5846,5:42:55.000,2005-01-02 05:05:48
36616,Discharging,-967.2,14.1046,5584.4,84.5535,5:47:09.000,2005-01-02 05:10:02
36870,Discharging,-967.2,14.0798,5652.26,85.5224,5:51:23.000,2005-01-02 05:14:16
37124,Discharging,-967.2,14.055,5720.13,86.488,5:55:37.000,2005-01-02 05:18:30
37378,Discharging,-965.4,14.0277,5787.96,87.4375,5:59:51.000,2005-01-02 05:22:44
37632,Discharging,-965.4,13.9955,5855.78,88.3871,6:04:05.000,2005-01-02 05:26:58
37886,Discharging,-965.4,13.9632,5923.61,89.33664,6:08:19.000,2005-01-02 05:31:12
38140,Discharging,-967.2,13.926,5991.43,90.2862,6:12:33.000,2005-01-02 05:35:26
38394,Discharging,-965.4,13.8888,6059.26,91.2357,6:16:47.000,2005-01-02 05:39:40
38648,Discharging,-967.2,13.8492,6127.1,92.1853,6:21:01.000,2005-01-02 05:43:54
38902,Discharging,-967.2,13.8144,6194.964,93.1349,6:25:15.000,2005-01-02 05:48:08
39156,Discharging,-967.2,13.7896,6262.82,94.084,6:29:29.000,2005-01-02 05:52:22
39410,Discharging,-967.2,13.7673,6330.68,95.0269,6:33:43.000,2005-01-02 05:56:36
39664,Discharging,-967.2,13.7425,6398.54,95.9576,6:37:57.000,2005-01-02 06:00:50
39918,Discharging,-967.2,13.7202,6466.41,96.8885,6:42:11.000,2005-01-02 06:05:04
40172,Discharging,-965.4,13.7003,6534.24,97.8187,6:46:25.000,2005-01-02 06:09:18
40426,Discharging,-967.2,13.6755,6602.06,98.7488,6:50:39.000,2005-01-02 06:13:32
40680,Discharging,-965.4,13.6507,6669.89,99.679,6:54:53.000,2005-01-02 06:17:46
40934,Discharging,-965.4,13.621,6737.72,100.609,6:59:07.000,2005-01-02 06:22:00
41188,Discharging,-967.2,13.5887,6805.54,101.539,7:03:21.000,2005-01-02 06:26:14
41442,Discharging,-967.2,13.5491,6873.37,102.47,7:07:35.000,2005-01-02 06:30:28
41696,Discharging,-967.2,13.4771,6941.22,103.397,7:11:49.000,2005-01-02 06:34:42
41950,Discharging,-967.2,13.3953,7009.07,104.308,7:16:03.000,2005-01-02 06:38:56
42204,Discharging,-967.2,13.3209,7076.924,105.218,7:20:17.000,2005-01-02 06:43:10
42458,Discharging,-967.2,13.2514,7144.78,106.129,7:24:31.000,2005-01-02 06:47:24
42712,Discharging,-967.2,13.1795,7212.62,107.032,7:28:45.000,2005-01-02 06:51:38
42966,Discharging,-965.4,13.1026,7280.46,107.924,7:32:59.000,2005-01-02 06:55:52
43220,Discharging,-965.4,13.0208,7348.29,108.815,7:37:13.000,2005-01-02 07:00:06
43474,Discharging,-965.4,12.9315,7416.116,109.704,7:41:27.000,2005-01-02 07:04:20
43728,Discharging,-967.2,12.8348,7483.94,110.576,7:45:41.000,2005-01-02 07:08:34
43982,Discharging,-965.4,12.7331,7551.77,111.448,7:49:55.000,2005-01-02 07:12:48
44236,Discharging,-965.4,12.6289,7619.592,112.315,7:54:09.000,2005-01-02 07:17:02
44490,Discharging,-967.2,12.5223,7687.43,113.168,7:58:23.000,2005-01-02 07:21:16
44744,Discharging,-967.2,12.4181,7755.27,114.02,8:02:37.000,2005-01-02 07:25:30
44998,Discharging,-967.2,12.3164,7823.11,114.866,8:06:51.000,2005-01-02 07:29:44
45252,Discharging,-967.2,12.2073,7890.95,115.699,8:11:05.000,2005-01-02 07:33:58
45506,Discharging,-967.2,12.0932,7958.8,116.532,8:15:19.000,2005-01-02 07:38:12
45760,Discharging,-818.4,12.0064,8024.8,117.328,8:19:33.000,2005-01-02 07:42:26
46014,Discharging,-496.6,12.0039,8070.01,117.87,8:23:47.000,2005-01-02 07:46:40
46268,Discharging,-316.2,12.0039,8098.11,118.207,8:28:01.000,2005-01-02 07:50:54
46522,Discharging,-217.6,12.0039,8116.64,118.43,8:32:15.000,2005-01-02 07:55:08
46776,Discharging,-156.2,12.0039,8129.62,118.584,8:36:29.000,2005-01-02 07:59:22
47030,Discharging,-119.0,12.0064,8139.15,118.699,8:40:43.000,2005-01-02 08:03:36
47220,Discharging,-100.4,12.0064,8144.592,118.771,8:43:53.000,2005-01-02 08:06:46