Folder: MobiCom24-SatelliteCOTS/Energy-Available/battery_curve

Note: Energy-Available/README.md
# Energy ShortTerm

This folder contains details of the artifacts related to Section 4 (Energy Results). We provide details of the dataset, analysis scripts as well as plotting scripts to generate Figure 14.

## Folder structure
| Foldername/Filename                               | Description                                                                |
| ------------------------------------------------- | -------------------------------------------------------------------------- |
| battery_curve           | The files needed to generate the battery characteristic curve |
| Data/longest_rounds_energy_df.csv | The collected CSV dataset of longest continuous rounds.                    |
| plot-section4-figure14.py      | Scripts for generating figure 14.                                    |

---

## Dataset Description

The dataset file `telemetry_all.csv` contains several fields. We provide description for each field below.

| Field name               | Description of the field                 |
| ------------------------ | ---------------------------------------- |
| `round_start`            | Timestamp of the round start             |
| `round_end`              | Timestamp of the round end               |
| `total_energy`           | Total consumed energy（Wh）              |
| `solar_harvested_energy` | Collected solar energy（Wh）             |
| `comm_energy`            | Communications consumed energy (Wh)      |
| `payload_energy`         | Payload Computing consumed energy (Wh)   |
| `other_energy`           | Energy consumed by other components (mA) |

## Requirements

* Python (>=3.6)
* Numpy (>=1.19.5)
* Matplotlib (>=3.1.3)
* Numpy (>=1.19.5)

---

## Generating Plots

Use the following bash command to generate results/plots

```bash
python3 plot-section4-figure14.py longest
```
The generated results will be saved in the `Energy-Available` folder.

File: charging_df_1.csv
Index,Status,Current(mA),Voltage(V),Capacity(mAh),Energy(Wh),RelaTime(h:min:s.ms),AbsoTime(h:min:s.ms)
48424,Charging,1454.6,12.3338,0.384028,0.00471572,0:00:01.000,2005-01-02 08:26:48
48644,Charging,1454.6,12.9141,89.2896,1.13184,0:03:41.000,2005-01-02 08:30:28
48864,Charging,1454.6,13.2242,178.19,2.29463,0:07:21.000,2005-01-02 08:34:08
49084,Charging,1454.6,13.4424,267.091,3.48031,0:11:01.000,2005-01-02 08:37:48
49304,Charging,1454.6,13.6036,355.991,4.68275,0:14:41.000,2005-01-02 08:41:28
49524,Charging,1454.6,13.7227,444.892,5.89767,0:18:21.000,2005-01-02 08:45:08
49744,Charging,1454.6,13.812,533.795,7.12165,0:22:01.000,2005-01-02 08:48:48
49964,Charging,1454.6,13.874,622.698,8.35224,0:25:41.000,2005-01-02 08:52:28
50184,Charging,1454.6,13.9211,711.613,9.58797,0:29:21.000,2005-01-02 08:56:08
50404,Charging,1454.6,13.9533,800.533,10.827,0:33:01.000,2005-01-02 08:59:48
50624,Charging,1454.6,13.9831,889.452,12.0687,0:36:41.000,2005-01-02 09:03:28
50844,Charging,1454.6,14.0178,978.372,13.3136,0:40:21.000,2005-01-02 09:07:08
51064,Charging,1454.6,14.05,1067.28,14.5613,0:44:01.000,2005-01-02 09:10:48
51284,Charging,1454.6,14.0798,1156.19,15.8116,0:47:41.000,2005-01-02 09:14:28
51504,Charging,1454.6,14.1145,1245.09,17.0654,0:51:21.000,2005-01-02 09:18:08
51724,Charging,1454.6,14.1493,1334,18.3216,0:55:01.000,2005-01-02 09:21:48
51944,Charging,1454.6,14.184,1422.895,19.5804,0:58:41.000,2005-01-02 09:25:28
52164,Charging,1454.6,14.2261,1511.794,20.8432,1:02:21.000,2005-01-02 09:29:08
52384,Charging,1454.6,14.2658,1600.69,22.1096,1:06:01.000,2005-01-02 09:32:48
52604,Charging,1454.6,14.308,1689.59,23.3795,1:09:41.000,2005-01-02 09:36:28
52824,Charging,1454.6,14.3452,1778.49,24.6532,1:13:21.000,2005-01-02 09:40:08
53044,Charging,1456.4,14.3874,1867.4,25.9306,1:17:01.000,2005-01-02 09:43:48
53264,Charging,1456.4,14.4246,1956.3,27.2111,1:20:41.000,2005-01-02 09:47:28
53484,Charging,1454.6,14.4593,2045.1,28.4952,1:24:21.000,2005-01-02 09:51:08
53704,Charging,1454.6,14.499,2133.8,29.7826,1:28:01.000,2005-01-02 09:54:48
53924,Charging,1454.6,14.5337,2222.5,31.0733,1:31:41.000,2005-01-02 09:58:28
54144,Charging,1454.6,14.5684,2311.19,32.366,1:35:21.000,2005-01-02 10:02:08
54364,Charging,1454.6,14.6031,2399.89,33.6631,1:39:01.000,2005-01-02 10:05:48
54584,Charging,1454.6,14.6304,2488.57,34.9638,1:42:41.000,2005-01-02 10:09:28
54804,Charging,1454.6,14.6552,2577.22,36.2646,1:46:21.000,2005-01-02 10:13:08
55024,Charging,1454.6,14.675,2665.87,37.5655,1:50:01.000,2005-01-02 10:16:48
55244,Charging,1454.6,14.6974,2754.53,38.8718,1:53:41.000,2005-01-02 10:20:28
55464,Charging,1454.6,14.7172,2843.182,40.1808,1:57:21.000,2005-01-02 10:24:08
55684,Charging,1454.6,14.7346,2931.84,41.49,2:01:01.000,2005-01-02 10:27:48
55904,Charging,1454.6,14.7544,3020.53,42.7992,2:04:41.000,2005-01-02 10:31:28
56124,Charging,1454.6,14.7743,3109.23,44.1092,2:08:21.000,2005-01-02 10:35:08
56344,Charging,1454.6,14.7966,3197.94,45.4264,2:12:01.000,2005-01-02 10:38:48
56564,Charging,1454.6,14.8189,3286.64,46.744,2:15:41.000,2005-01-02 10:42:28
56784,Charging,1454.6,14.8412,3375.33,48.0616,2:19:21.000,2005-01-02 10:46:08
57004,Charging,1454.6,14.8635,3464.03,49.3796,2:23:01.000,2005-01-02 10:49:48
57224,Charging,1454.6,14.8859,3552.72,50.7034,2:26:41.000,2005-01-02 10:53:28
57444,Charging,1454.6,14.9156,3641.4,52.0293,2:30:21.000,2005-01-02 10:57:08
57664,Charging,1454.6,14.9404,3730.05,53.3553,2:34:01.000,2005-01-02 11:00:48
57884,Charging,1454.6,14.9677,3818.7,54.6822,2:37:41.000,2005-01-02 11:04:28
58104,Charging,1456.4,14.9975,3907.35,56.0164,2:41:21.000,2005-01-02 11:08:08
58324,Charging,1454.6,15.0272,3996,57.3507,2:45:01.000,2005-01-02 11:11:48
58544,Charging,1454.6,15.0595,4085.15,58.6854,2:48:41.000,2005-01-02 11:15:28
58764,Charging,1454.6,15.0917,4174.31,60.0281,2:52:21.000,2005-01-02 11:19:08
58984,Charging,1454.6,15.1289,4263.48,61.3709,2:56:01.000,2005-01-02 11:22:48
59204,Charging,1454.6,15.1636,4352.65,62.7165,2:59:41.000,2005-01-02 11:26:28
59424,Charging,1454.6,15.2008,4441.82,64.0676,3:03:21.000,2005-01-02 11:30:08
59644,Charging,1454.6,15.2405,4530.99,65.4272,3:07:01.000,2005-01-02 11:33:48
59864,Charging,1454.6,15.2777,4620.16,66.7867,3:10:41.000,2005-01-02 11:37:28
60084,Charging,1454.6,15.3224,4709.32,68.1463,3:14:21.000,2005-01-02 11:41:08
60304,Charging,1454.6,15.3621,4798.49,69.5058,3:18:01.000,2005-01-02 11:44:48
60524,Charging,1454.6,15.4017,4887.66,70.8706,3:21:41.000,2005-01-02 11:48:28
60744,Charging,1454.6,15.4439,4976.83,72.2462,3:25:21.000,2005-01-02 11:52:08
60964,Charging,1454.6,15.4836,5066,73.6225,3:29:01.000,2005-01-02 11:55:48
61184,Charging,1454.6,15.5257,5155.17,74.9989,3:32:41.000,2005-01-02 11:59:28
61404,Charging,1454.6,15.5629,5244.34,76.3752,3:36:21.000,2005-01-02 12:03:08
61624,Charging,1454.6,15.5977,5333.51,77.7616,3:40:01.000,2005-01-02 12:06:48
61844,Charging,1454.6,15.6349,5422.67,79.1547,3:43:41.000,2005-01-02 12:10:28
62064,Charging,1454.6,15.6696,5511.84,80.5479,3:47:21.000,2005-01-02 12:14:08
62284,Charging,1454.6,15.7018,5601.01,81.941,3:51:01.000,2005-01-02 12:17:48
62504,Charging,1454.6,15.7366,5690.18,83.3341,3:54:41.000,2005-01-02 12:21:28
62724,Charging,1454.6,15.7688,5779.35,84.72864,3:58:21.000,2005-01-02 12:25:08
62944,Charging,1454.6,15.7986,5868.52,86.1385,4:02:01.000,2005-01-02 12:28:48
63164,Charging,1454.6,15.8333,5957.68,87.5484,4:05:41.000,2005-01-02 12:32:28
63384,Charging,1454.6,15.863,6046.85,88.9583,4:09:21.000,2005-01-02 12:36:08
63604,Charging,1454.6,15.8928,6136.02,90.3683,4:13:01.000,2005-01-02 12:39:48
63824,Charging,1454.6,15.925,6225.19,91.7782,4:16:41.000,2005-01-02 12:43:28
64044,Charging,1454.6,15.9573,6314.36,93.1889,4:20:21.000,2005-01-02 12:47:08
64264,Charging,1454.6,15.9895,6403.528,94.6149,4:24:01.000,2005-01-02 12:50:48
64484,Charging,1454.6,16.0218,6492.7,96.0414,4:27:41.000,2005-01-02 12:54:28
64704,Charging,1454.6,16.059,6581.86,97.4681,4:31:21.000,2005-01-02 12:58:08
64924,Charging,1454.6,16.0937,6671.03,98.8948,4:35:01.000,2005-01-02 13:01:48
65144,Charging,1454.6,16.1309,6760.2,100.322,4:38:41.000,2005-01-02 13:05:28
65364,Charging,1454.6,16.1731,6849.37,101.759,4:42:21.000,2005-01-02 13:09:08
65584,Charging,1454.6,16.2127,6938.54,103.203,4:46:01.000,2005-01-02 13:12:48
65804,Charging,1456.4,16.2549,7027.71,104.646,4:49:41.000,2005-01-02 13:16:28
66024,Charging,1454.6,16.2971,7116.876,106.09,4:53:21.000,2005-01-02 13:20:08
66244,Charging,1454.6,16.3392,7206.04,107.536,4:57:01.000,2005-01-02 13:23:48
66464,Charging,1454.6,16.3839,7295.21,108.995,5:00:41.000,2005-01-02 13:27:28
66684,Charging,1263.0,16.3938,7379.31,110.373,5:04:21.000,2005-01-02 13:31:08
66904,Charging,1086.3,16.3938,7450.84,111.546,5:08:01.000,2005-01-02 13:34:48
67124,Charging,946.8,16.3938,7512.864,112.564,5:11:41.000,2005-01-02 13:38:28
67344,Charging,840.7,16.3938,7567.184,113.454,5:15:21.000,2005-01-02 13:42:08
67564,Charging,745.9,16.3938,7615.5,114.247,5:19:01.000,2005-01-02 13:45:48
67784,Charging,665.9,16.3938,7658.52,114.953,5:22:41.000,2005-01-02 13:49:28
68004,Charging,598.9,16.3938,7697.2,115.587,5:26:21.000,2005-01-02 13:53:08
68224,Charging,543.1,16.3938,7732.15,116.161,5:30:01.000,2005-01-02 13:56:48
68444,Charging,496.6,16.3938,7763.94,116.682,5:33:41.000,2005-01-02 14:00:28
68664,Charging,457.5,16.3938,7793.07,117.159,5:37:21.000,2005-01-02 14:04:08
68884,Charging,416.6,16.3938,7819.352,117.593,5:41:01.000,2005-01-02 14:07:48
69104,Charging,385.0,16.3938,7843.88,117.996,5:44:41.000,2005-01-02 14:11:28
69324,Charging,362.7,16.3938,7866.63,118.371,5:48:21.000,2005-01-02 14:15:08
69544,Charging,342.2,16.3938,7888.0,118.723,5:52:01.000,2005-01-02 14:18:48
69764,Charging,319.9,16.3938,7908.22,119.054,5:55:41.000,2005-01-02 14:22:28
69984,Charging,303.1,16.3938,7927.21,119.366,5:59:21.000,2005-01-02 14:26:08
70204,Charging,293.8,16.3938,7945.3,119.664,6:03:01.000,2005-01-02 14:29:48
70424,Charging,279.0,16.3938,7962.95,119.951,6:06:41.000,2005-01-02 14:33:28
70644,Charging,267.8,16.3938,7979.74,120.224,6:10:21.000,2005-01-02 14:37:08
70864,Charging,254.8,16.3938,7995.56,120.485,6:14:01.000,2005-01-02 14:40:48
71084,Charging,243.6,16.3938,8010.54,120.737,6:17:41.000,2005-01-02 14:44:28
71304,Charging,234.3,16.3938,8025.23,120.973,6:21:21.000,2005-01-02 14:48:08
71524,Charging,225.0,16.3938,8039.91,121.204,6:25:01.000,2005-01-02 14:51:48
71744,Charging,212.0,16.3938,8052.75,121.422,6:28:41.000,2005-01-02 14:55:28
71964,Charging,202.7,16.3938,8065.33,121.624,6:32:21.000,2005-01-02 14:59:08
72184,Charging,195.3,16.3938,8077.92,121.826,6:36:01.000,2005-01-02 15:02:48
72404,Charging,186.0,16.3938,8090.16,122.02,6:39:41.000,2005-01-02 15:06:28
72624,Charging,180.4,16.3938,8100.65,122.205,6:43:21.000,2005-01-02 15:10:08
72844,Charging,176.7,16.3938,8111.14,122.388,6:47:01.000,2005-01-02 15:13:48
73064,Charging,176.7,16.3938,8121.63,122.561,6:50:41.000,2005-01-02 15:17:28
73284,Charging,169.2,16.3938,8132.12,122.731,6:54:21.000,2005-01-02 15:21:08
73504,Charging,163.6,16.3938,8142.61,122.899,6:58:01.000,2005-01-02 15:24:48
73724,Charging,158.1,16.3938,8153.104,123.066,7:01:41.000,2005-01-02 15:28:28
73944,Charging,152.5,16.3938,8162.29,123.218,7:05:21.000,2005-01-02 15:32:08
74164,Charging,146.9,16.3938,8170.68,123.369,7:09:01.000,2005-01-02 15:35:48
74384,Charging,143.2,16.3938,8179.07,123.52,7:12:41.000,2005-01-02 15:39:28
74604,Charging,132.0,16.3938,8187.47,123.655,7:16:21.000,2005-01-02 15:43:08
74824,Charging,126.4,16.3938,8195.86,123.79,7:20:01.000,2005-01-02 15:46:48
75044,Charging,124.6,16.3938,8204.25,123.916,7:23:41.000,2005-01-02 15:50:28
75264,Charging,120.9,16.3938,8212.56,124.033,7:27:21.000,2005-01-02 15:54:08
75484,Charging,113.4,16.3938,8219.04,124.151,7:31:01.000,2005-01-02 15:57:48
75704,Charging,111.6,16.3938,8225.34,124.268,7:34:41.000,2005-01-02 16:01:28
75924,Charging,113.4,16.3938,8231.63,124.381,7:38:21.000,2005-01-02 16:05:08
76144,Charging,113.4,16.3938,8237.93,124.498,7:42:01.000,2005-01-02 16:08:48
76364,Charging,107.8,16.3938,8244.224,124.612,7:45:41.000,2005-01-02 16:12:28
76584,Charging,106.0,16.3938,8250.52,124.713,7:49:21.000,2005-01-02 16:16:08
76770,Charging,100.4,16.3938,8255.84,124.798,7:52:27.000,2005-01-02 16:19:14

File: discharging_df_2.csv
Index,Status,Current(mA),Voltage(V),Capacity(mAh),Energy(Wh),RelaTime(h:min:s.ms),AbsoTime(h:min:s.ms)
77375,Discharging,-965.4,16.2574,0.241111,0.0039325,0:00:01.000,2005-01-02 16:29:16
77630,Discharging,-965.4,16.2078,68.6089,1.11301,0:04:16.000,2005-01-02 16:33:31
77885,Discharging,-965.4,16.1879,136.975,2.22035,0:08:31.000,2005-01-02 16:37:46
78140,Discharging,-965.4,16.1731,205.356,3.32668,0:12:46.000,2005-01-02 16:42:01
78395,Discharging,-965.4,16.1557,273.738,4.43207,0:17:01.000,2005-01-02 16:46:16
78650,Discharging,-965.4,16.1383,342.12,5.53618,0:21:16.000,2005-01-02 16:50:31
78905,Discharging,-967.2,16.1185,410.564,6.6404,0:25:31.000,2005-01-02 16:54:46
79160,Discharging,-965.4,16.0962,479.019,7.7434,0:29:46.000,2005-01-02 16:59:01
79415,Discharging,-967.2,16.0714,547.512,8.84473,0:34:01.000,2005-01-02 17:03:16
79670,Discharging,-967.2,16.0441,616.019,9.94431,0:38:16.000,2005-01-02 17:07:31
79925,Discharging,-967.2,16.0143,684.532,11.0421,0:42:31.000,2005-01-02 17:11:46
80180,Discharging,-965.4,15.9871,753.034,12.1381,0:46:46.000,2005-01-02 17:16:01
80435,Discharging,-965.4,15.9573,821.414,13.2299,0:51:01.000,2005-01-02 17:20:16
80690,Discharging,-965.4,15.9226,889.799,14.3198,0:55:16.000,2005-01-02 17:24:31
80945,Discharging,-965.4,15.8903,958.19,15.4075,0:59:31.000,2005-01-02 17:28:46
81200,Discharging,-965.4,15.8581,1026.58,16.493,1:03:46.000,2005-01-02 17:33:01
81455,Discharging,-965.4,15.8234,1094.98,17.5769,1:08:01.000,2005-01-02 17:37:16
81710,Discharging,-965.4,15.7886,1163.37,18.6582,1:12:16.000,2005-01-02 17:41:31
81965,Discharging,-967.2,15.7564,1231.772,19.738,1:16:31.000,2005-01-02 17:45:46
82220,Discharging,-967.2,15.7217,1300.17,20.8161,1:20:46.000,2005-01-02 17:50:01
82475,Discharging,-965.4,15.6894,1368.57,21.891,1:25:01.000,2005-01-02 17:54:16
82730,Discharging,-965.4,15.6597,1436.97,22.9652,1:29:16.000,2005-01-02 17:58:31
82985,Discharging,-967.2,15.6274,1505.36,24.036,1:33:31.000,2005-01-02 18:02:46
83240,Discharging,-967.2,15.6001,1573.76,25.1042,1:37:46.000,2005-01-02 18:07:01
83495,Discharging,-967.2,15.5753,1642.16,26.1697,1:42:01.000,2005-01-02 18:11:16
83750,Discharging,-965.4,15.5481,1710.55,27.2341,1:46:16.000,2005-01-02 18:15:31
84005,Discharging,-965.4,15.5183,1778.95,28.2959,1:50:31.000,2005-01-02 18:19:46
84260,Discharging,-963.5,15.491,1847.35,29.3561,1:54:46.000,2005-01-02 18:24:01
84515,Discharging,-965.4,15.4637,1915.74,30.4158,1:59:01.000,2005-01-02 18:28:16
84770,Discharging,-967.2,15.434,1984.14,31.4743,2:03:16.000,2005-01-02 18:32:31
85025,Discharging,-967.2,15.4017,2052.69,32.5307,2:07:31.000,2005-01-02 18:36:46
85280,Discharging,-967.2,15.3745,2121.292,33.5813,2:11:46.000,2005-01-02 18:41:01
85535,Discharging,-967.2,15.3447,2189.9,34.6319,2:16:01.000,2005-01-02 18:45:16
85790,Discharging,-967.2,15.31,2258.522,35.6825,2:20:16.000,2005-01-02 18:49:31
86045,Discharging,-965.4,15.2802,2326.91,36.7303,2:24:31.000,2005-01-02 18:53:46
86300,Discharging,-967.2,15.2504,2395.11,37.7722,2:28:46.000,2005-01-02 18:58:01
86555,Discharging,-963.5,15.2207,2463.32,38.813,2:33:01.000,2005-01-02 19:02:16
86810,Discharging,-965.4,15.1884,2531.53,39.8538,2:37:16.000,2005-01-02 19:06:31
87065,Discharging,-965.4,15.1587,2599.76,40.8942,2:41:31.000,2005-01-02 19:10:46
87320,Discharging,-965.4,15.1339,2668.02,41.9302,2:45:46.000,2005-01-02 19:15:01
87575,Discharging,-967.2,15.0992,2736.66,42.9633,2:50:01.000,2005-01-02 19:19:16
87830,Discharging,-967.2,15.0694,2805.31,43.9946,2:54:16.000,2005-01-02 19:23:31
88085,Discharging,-967.2,15.0421,2873.97,45.0258,2:58:31.000,2005-01-02 19:27:46
88340,Discharging,-965.4,15.0124,2942.63,46.0569,3:02:46.000,2005-01-02 19:32:01
88595,Discharging,-967.2,14.9801,3011.29,47.0875,3:07:01.000,2005-01-02 19:36:16
88850,Discharging,-965.4,14.9553,3079.86,48.11,3:11:16.000,2005-01-02 19:40:31
89105,Discharging,-965.4,14.928,3148.096,49.1313,3:15:31.000,2005-01-02 19:44:46
89360,Discharging,-965.4,14.8983,3216.34,50.1527,3:19:46.000,2005-01-02 19:49:01
89615,Discharging,-967.2,14.8685,3284.596,51.1737,3:24:01.000,2005-01-02 19:53:16
89870,Discharging,-967.2,14.8387,3352.87,52.1889,3:28:16.000,2005-01-02 19:57:31
90125,Discharging,-965.4,14.809,3421.15,53.2007,3:32:31.000,2005-01-02 20:01:46
90380,Discharging,-967.2,14.7767,3489.7,54.2126,3:36:46.000,2005-01-02 20:06:01
90635,Discharging,-967.2,14.7495,3558.37,55.2243,3:41:01.000,2005-01-02 20:10:16
90890,Discharging,-967.2,14.7197,3627.05,56.2359,3:45:16.000,2005-01-02 20:14:31
91145,Discharging,-967.2,14.6924,3695.72,57.2456,3:49:31.000,2005-01-02 20:18:46
91400,Discharging,-967.2,14.6602,3764.4,58.2481,3:53:46.000,2005-01-02 20:23:01
91655,Discharging,-965.4,14.6378,3833.07,59.2505,3:58:01.000,2005-01-02 20:27:16
91910,Discharging,-965.4,14.6106,3901.41,60.2524,4:02:16.000,2005-01-02 20:31:31
92165,Discharging,-965.4,14.5858,3969.688,61.254,4:06:31.000,2005-01-02 20:35:46
92420,Discharging,-965.4,14.561,4037.87,62.2515,4:10:46.000,2005-01-02 20:40:01
92675,Discharging,-967.2,14.5362,4105.97,63.2445,4:15:01.000,2005-01-02 20:44:16
92930,Discharging,-967.2,14.5138,4174.07,64.2368,4:19:16.000,2005-01-02 20:48:31
93185,Discharging,-967.2,14.489,4242.2,65.229,4:23:31.000,2005-01-02 20:52:46
93440,Discharging,-967.2,14.4667,4310.4,66.2212,4:27:46.000,2005-01-02 20:57:01
93695,Discharging,-967.2,14.4469,4378.62,67.2134,4:32:01.000,2005-01-02 21:01:16
93950,Discharging,-967.2,14.4246,4446.85,68.2056,4:36:16.000,2005-01-02 21:05:31
94205,Discharging,-967.2,14.4072,4515.09,69.1978,4:40:31.000,2005-01-02 21:09:46
94460,Discharging,-970.9,14.3874,4583.3,70.19,4:44:46.000,2005-01-02 21:14:01
94715,Discharging,-967.2,14.3725,4651.47,71.1818,4:49:01.000,2005-01-02 21:18:16
94970,Discharging,-965.4,14.3526,4719.57,72.164,4:53:16.000,2005-01-02 21:22:31
95225,Discharging,-967.2,14.3377,4787.67,73.1416,4:57:31.000,2005-01-02 21:26:46
95480,Discharging,-965.4,14.3204,4855.77,74.1145,5:01:46.000,2005-01-02 21:31:01
95735,Discharging,-965.4,14.303,4923.87,75.0874,5:06:01.000,2005-01-02 21:35:16
95990,Discharging,-965.4,14.2857,4991.97,76.0604,5:10:16.000,2005-01-02 21:39:31
96245,Discharging,-967.2,14.2633,5060.19,77.0331,5:14:31.000,2005-01-02 21:43:46
96500,Discharging,-967.2,14.2435,5128.4,78.0059,5:18:46.000,2005-01-02 21:48:01
96755,Discharging,-967.2,14.2237,5196.64,78.9786,5:23:01.000,2005-01-02 21:52:16
97010,Discharging,-967.2,14.2038,5264.87,79.9514,5:27:16.000,2005-01-02 21:56:31
97265,Discharging,-967.2,14.184,5333.12,80.9241,5:31:31.000,2005-01-02 22:00:46
97520,Discharging,-965.4,14.1617,5401.35,81.8969,5:35:46.000,2005-01-02 22:05:01
97775,Discharging,-967.2,14.1393,5469.46,82.8696,5:40:01.000,2005-01-02 22:09:16
98030,Discharging,-967.2,14.1145,5537.56,83.8424,5:44:16.000,2005-01-02 22:13:31
98285,Discharging,-965.4,14.0897,5605.66,84.8147,5:48:31.000,2005-01-02 22:17:46
98540,Discharging,-967.2,14.06,5673.77,85.7786,5:52:46.000,2005-01-02 22:22:01
98795,Discharging,-967.2,14.0302,5741.88,86.7329,5:57:01.000,2005-01-02 22:26:16
99050,Discharging,-967.2,13.9955,5810.06,87.6869,6:01:16.000,2005-01-02 22:30:31
99305,Discharging,-967.2,13.9608,5878.29,88.6402,6:05:31.000,2005-01-02 22:34:46
99560,Discharging,-967.2,13.9236,5946.49,89.5935,6:09:46.000,2005-01-02 22:39:01
99815,Discharging,-967.2,13.8888,6014.71,90.5468,6:14:01.000,2005-01-02 22:43:16
100070,Discharging,-967.2,13.8566,6082.92,91.5001,6:18:16.000,2005-01-02 22:47:31
100325,Discharging,-967.2,13.8244,6151.13,92.4534,6:22:31.000,2005-01-02 22:51:46
100580,Discharging,-965.4,13.8045,6219.25,93.4061,6:26:46.000,2005-01-02 22:56:01
100835,Discharging,-965.4,13.7847,6287.35,94.3504,6:31:01.000,2005-01-02 23:00:16
101090,Discharging,-967.2,13.7624,6355.45,95.2879,6:35:16.000,2005-01-02 23:04:31
101345,Discharging,-965.4,13.74,6423.55,96.2219,6:39:31.000,2005-01-02 23:08:46
101600,Discharging,-967.2,13.7177,6491.66,97.15584,6:43:46.000,2005-01-02 23:13:01
101855,Discharging,-967.2,13.6929,6559.78,98.0897,6:48:01.000,2005-01-02 23:17:16
102110,Discharging,-967.2,13.6656,6628.02,99.0235,6:52:16.000,2005-01-02 23:21:31
102365,Discharging,-967.2,13.6383,6696.24,99.9574,6:56:31.000,2005-01-02 23:25:46
102620,Discharging,-967.2,13.6061,6764.46,100.8912,7:00:46.000,2005-01-02 23:30:01
102875,Discharging,-967.2,13.5664,6832.7,101.825,7:05:01.000,2005-01-02 23:34:16
103130,Discharging,-967.2,13.5094,6900.92,102.759,7:09:16.000,2005-01-02 23:38:31
103385,Discharging,-965.4,13.4474,6969.11,103.68,7:13:31.000,2005-01-02 23:42:46
103640,Discharging,-965.4,13.3878,7037.21,104.594,7:17:46.000,2005-01-02 23:47:01
103895,Discharging,-965.4,13.3258,7105.31,105.509,7:22:01.000,2005-01-02 23:51:16
104150,Discharging,-967.2,13.2589,7173.41,106.423,7:26:16.000,2005-01-02 23:55:31
104405,Discharging,-967.2,13.187,7241.51,107.328,7:30:31.000,2005-01-02 23:59:46
104660,Discharging,-967.2,13.1101,7309.61,108.223,7:34:46.000,2005-01-03 00:04:01
104915,Discharging,-965.4,13.0208,7377.79,109.118,7:39:01.000,2005-01-03 00:08:16
105170,Discharging,-967.2,12.929,7446,110.013,7:43:16.000,2005-01-03 00:12:31
105425,Discharging,-967.2,12.8298,7514.2,110.891,7:47:31.000,2005-01-03 00:16:46
105680,Discharging,-970.9,12.7256,7582.41,111.766,7:51:46.000,2005-01-03 00:21:01
105935,Discharging,-970.9,12.6215,7650.63,112.639,7:56:01.000,2005-01-03 00:25:16
106190,Discharging,-965.4,12.5223,7718.85,113.495,8:00:16.000,2005-01-03 00:29:31
106445,Discharging,-965.4,12.4206,7786.97,114.351,8:04:31.000,2005-01-03 00:33:46
106700,Discharging,-965.4,12.3189,7855.06,115.198,8:08:46.000,2005-01-03 00:38:01
106955,Discharging,-967.2,12.2147,7923.16,116.035,8:13:01.000,2005-01-03 00:42:16
107210,Discharging,-965.4,12.1006,7991.264,116.871,8:17:16.000,2005-01-03 00:46:31
107465,Discharging,-818.4,12.0039,8058.02,117.675,8:21:31.000,2005-01-03 00:50:46
107720,Discharging,-474.3,12.0064,8103.13,118.217,8:25:46.000,2005-01-03 00:55:01
107975,Discharging,-293.8,12.0064,8129.78,118.536,8:30:01.000,2005-01-03 00:59:16
108230,Discharging,-191.5,12.0064,8146.72,118.739,8:34:16.000,2005-01-03 01:03:31
108485,Discharging,-133.9,12.0064,8157.95,118.876,8:38:31.000,2005-01-03 01:07:46
108721,Discharging,-102.3,12.0064,8165.55,118.969,8:42:27.000,2005-01-03 01:11:42